timestamp_ms,sample_number,imu,ax,ay,az,gx,gy,gz,temp
9395,0,0x6A,-5.471189,0.356531,-7.875976,-0.102167,0.127365,-0.020159,23.00
9395,0,0x6B,-5.534599,-0.830309,7.944171,-0.102778,-0.131947,0.004734,23.18
9445,1,0x6A,-5.860023,0.330210,-7.896315,-0.065210,0.150120,-0.007636,22.96
9445,1,0x6B,-5.954540,-0.796810,8.176275,-0.051771,-0.177609,-0.007025,23.19
9495,2,0x6A,-5.728417,0.100499,-8.341380,-0.050702,0.115454,0.033445,23.01
9495,2,0x6B,-5.789434,-0.713061,8.075776,-0.047342,-0.105985,-0.054062,23.23
9545,3,0x6A,-6.051448,0.246461,-7.800602,0.025809,0.028100,0.101251,22.98
9545,3,0x6B,-6.141179,-0.838684,7.990831,0.031307,-0.036194,-0.122173,23.18
9595,4,0x6A,-5.773881,-0.053839,-7.807780,0.083841,0.032987,0.182343,22.99
9595,4,0x6B,-5.751149,-0.829113,7.624729,0.105832,-0.048564,-0.241444,23.20
9645,5,0x6A,-6.035895,0.265603,-7.794620,0.268933,0.116675,0.299019,23.01
9645,5,0x6B,-6.156733,-0.647258,8.002795,0.268781,-0.109039,-0.315970,23.20
9695,6,0x6A,-5.721239,-0.256032,-7.885547,0.127671,0.060628,0.392634,22.98
9695,6,0x6B,-5.767899,-0.709472,8.031509,0.115148,-0.052687,-0.433714,23.20
9745,7,0x6A,-6.087341,0.090927,-7.944171,0.088117,0.009774,0.596815,23.00
9745,7,0x6B,-6.458229,-0.488136,8.276773,0.080634,-0.013897,-0.633925,23.22
9795,8,0x6A,-6.165108,-0.386441,-8.822337,-0.090103,0.206014,0.928362,23.00
9795,8,0x6B,-6.240481,-1.192822,8.742178,-0.070860,-0.193033,-0.919199,23.20
9845,9,0x6A,-6.689136,1.409373,-10.709077,-0.789238,-0.623693,1.623069,22.98
9845,9,0x6B,-6.878169,-2.267200,8.134401,-0.809702,0.611018,-1.613753,23.22
9895,10,0x6A,-7.780263,1.028914,-9.846465,-1.484708,-1.479668,1.547474,22.94
9895,10,0x6B,-7.927422,-2.031507,9.141779,-1.551445,1.560608,-1.515251,23.18
9945,11,0x6A,-6.077770,3.647858,-8.700304,-1.191645,-1.805107,1.516626,22.98
9945,11,0x6B,-6.647262,-3.998407,8.559127,-1.231657,1.823127,-1.499216,23.18
9995,12,0x6A,-6.003592,4.335794,-7.067202,-1.086577,-1.940566,1.237002,22.96
9995,12,0x6B,-6.531209,-4.058227,7.485946,-1.114524,1.950187,-1.208902,23.18
10045,13,0x6A,-5.355137,4.743771,-6.729814,-0.709062,-1.908343,0.713185,22.94
10045,13,0x6B,-5.562116,-4.632505,5.858827,-0.680046,1.965764,-0.580322,23.23
10095,14,0x6A,-4.161119,5.491528,-4.517649,-0.552069,-2.330909,0.122173,22.98
10095,14,0x6B,-4.703093,-4.851448,4.438686,-0.570854,2.324953,-0.071471,23.23
10145,15,0x6A,-3.991228,5.358726,-1.783849,-0.316123,-1.870622,-0.392786,23.02
10145,15,0x6B,-4.354938,-5.091927,3.017349,-0.323148,1.794722,0.423635,23.22
10195,16,0x6A,-4.017549,4.950750,0.209372,-0.247095,-1.269531,-0.651946,23.03
10195,16,0x6B,-3.909872,-4.578666,1.310070,-0.214261,0.963182,0.715476,23.21
10245,17,0x6A,-3.583252,4.729414,3.035296,-0.141873,0.114995,-0.750753,22.97
10245,17,0x6B,-3.572484,-4.711468,0.184247,-0.134543,-0.000153,0.731969,23.24
10295,18,0x6A,-4.944768,4.768896,0.131605,-0.101251,1.633301,-1.127810,22.98
10295,18,0x6B,-5.582456,-3.853641,1.730011,-0.049786,-1.751351,1.154993,23.20
10345,19,0x6A,-6.550352,4.341777,-3.588037,0.062461,2.052202,-1.619404,22.98
10345,19,0x6B,-7.689335,-3.842873,6.519246,0.162185,-2.185523,1.656056,23.23
10395,20,0x6A,-10.071390,2.181058,-10.498509,0.634384,2.368019,-2.222633,22.99
10395,20,0x6B,-10.971092,-2.076970,8.792427,0.690125,-2.424829,2.161241,23.23
10445,21,0x6A,-12.022738,2.873780,-10.652845,0.511447,1.229061,-2.503479,23.00
10445,21,0x6B,-12.776477,-2.773281,9.477971,0.560163,-1.293813,2.461787,23.26
10495,22,0x6A,-9.561719,1.209572,-10.876576,0.307571,0.181122,-2.539978,22.99
10495,22,0x6B,-10.242477,-1.142573,7.415358,0.253814,0.099724,2.526233,23.21
10545,23,0x6A,-8.033902,-1.020539,-6.832705,0.426842,-1.025643,-2.485305,23.05
10545,23,0x6B,-8.730214,0.557528,7.392625,0.428064,0.969596,2.474157,23.23
10595,24,0x6A,-7.089933,-2.639283,-5.239085,0.579100,-1.098794,-2.251497,23.04
10595,24,0x6B,-7.734799,1.819742,5.020142,0.571617,1.051910,2.235003,23.24
10645,25,0x6A,-6.687939,-3.824927,-3.544966,0.135612,-1.359175,-2.047926,23.02
10645,25,0x6B,-7.026524,2.811567,3.135794,0.012217,1.317331,1.939650,23.22
10695,26,0x6A,-5.408976,-5.903093,-1.269392,-0.439823,-1.080010,-1.182635,23.07
10695,26,0x6B,-5.696114,3.601198,2.595016,-0.467770,1.007011,1.118036,23.27
10745,27,0x6A,-5.595616,-5.144568,0.628116,-0.732886,-0.286038,-0.377362,22.99
10745,27,0x6B,-5.839684,3.142973,1.548156,-0.769232,0.207389,0.313832,23.23
10795,28,0x6A,-5.752346,-3.975675,0.732204,-1.293507,0.603077,0.106901,23.03
10795,28,0x6B,-6.166304,3.451647,1.506282,-1.424843,-0.866512,-0.219301,23.22
10845,29,0x6A,-5.986843,-4.433900,-3.117848,-1.676825,1.638341,0.227089,23.00
10845,29,0x6B,-6.299106,3.967300,3.280560,-1.651780,-1.602147,-0.246790,23.23
10895,30,0x6A,-7.983653,-4.898108,-8.134401,-1.015411,1.731803,0.080023,22.97
10895,30,0x6B,-8.598608,4.984250,8.344969,-0.846659,-1.726916,-0.076969,23.25
10945,31,0x6A,-9.878769,-5.801398,-12.340983,0.058796,1.458288,0.022449,23.00
10945,31,0x6B,-10.503295,5.295316,11.063216,0.212581,-1.326952,-0.058185,23.26
10995,32,0x6A,-9.558130,-5.278566,-11.308480,0.968221,-0.358272,0.398131,23.00
10995,32,0x6B,-9.540184,3.649055,8.427522,0.941649,0.297644,-0.386372,23.25
11045,33,0x6A,-9.556933,-3.932604,-5.426922,1.281290,-0.834595,0.904844,22.98
11045,33,0x6B,-9.747163,2.300699,5.739185,1.252426,0.856128,-0.898735,23.21
11095,34,0x6A,-7.914261,-3.574877,-4.719843,0.459371,-1.077108,1.685377,22.99
11095,34,0x6B,-7.980063,1.695315,3.718446,0.237627,1.212262,-1.829694,23.23
11145,35,0x6A,-6.241678,0.173480,-0.189033,-0.240986,-1.092380,2.375502,23.04
11145,35,0x6B,-6.951150,-0.384048,2.111666,-0.280998,1.118800,-2.370463,23.26
11195,36,0x6A,-5.611169,2.556731,0.198604,-0.536798,-0.001222,2.076178,23.04
11195,36,0x6B,-6.008378,-1.258625,1.417747,-0.548862,0.013744,-2.059379,23.23
11245,37,0x6A,-5.234299,3.523431,-2.283949,-0.392481,0.438143,1.276250,22.98
11245,37,0x6B,-6.088538,-0.794417,4.939982,-0.168293,-0.589332,-0.953408,23.26
11295,38,0x6A,-7.686943,1.052842,-7.158129,1.251357,2.025629,-0.445779,23.03
11295,38,0x6B,-8.383254,1.171287,9.298509,1.105972,-1.807856,0.490983,23.25
11345,39,0x6A,-7.805387,-1.339981,-12.447463,1.675298,1.325425,-1.720502,22.97
11345,39,0x6B,-8.108080,2.086541,9.901500,1.675298,-1.220662,1.754710,23.28
11395,40,0x6A,-6.303891,-1.977668,-9.578468,1.438435,0.121868,-2.087174,22.98
11395,40,0x6B,-6.604190,0.997807,8.289934,1.413848,0.027184,1.961946,23.23
11445,41,0x6A,-6.433104,-3.633501,-7.730014,0.975399,-0.562912,-1.466535,22.98
11445,41,0x6B,-6.685547,2.165505,7.148558,1.012204,0.485943,1.499216,23.24
11495,42,0x6A,-7.761120,-3.517449,-2.627319,0.635758,-0.667218,-1.023047,23.03
11495,42,0x6B,-8.079366,2.481357,4.991428,0.644157,0.691499,0.962113,23.23
11545,43,0x6A,-7.129415,-2.804389,-3.085545,0.128282,0.252745,-0.957073,23.05
11545,43,0x6B,-7.393822,2.305485,4.223332,0.082620,-0.345444,0.933708,23.23
11595,44,0x6A,-7.103094,-3.469593,-4.567898,-0.542143,0.986089,-0.976315,23.03
11595,44,0x6B,-7.428517,3.020939,5.978468,-0.491288,-0.987769,0.948979,23.27
11645,45,0x6A,-6.994221,-5.014160,-7.884351,-0.449902,1.421483,-0.902248,23.00
11645,45,0x6B,-7.336394,4.520042,7.816155,-0.420581,-1.441795,0.868650,23.26
11695,46,0x6A,-6.061019,-5.776274,-10.253245,-0.468228,0.742659,-0.717461,22.99
11695,46,0x6B,-6.349354,4.207779,9.190832,-0.450208,-0.616668,0.609491,23.21
11745,47,0x6A,-5.398208,-3.638287,-8.457432,-0.777631,0.187536,-0.242514,23.01
11745,47,0x6B,-5.432904,2.182254,8.005188,-0.782213,-0.194561,0.219453,23.24
11795,48,0x6A,-4.102495,-2.800799,-7.539784,-0.926072,0.650571,0.233656,22.97
11795,48,0x6B,-4.249653,1.479961,9.448061,-0.962571,-0.681267,-0.267712,23.26
11845,49,0x6A,-3.500700,-4.465007,-11.592030,-1.738981,-0.572075,1.191187,22.95
11845,49,0x6B,-5.282156,3.991228,9.265010,-1.946675,0.995558,-1.199587,23.25
11895,50,0x6A,-4.947161,-3.495914,-5.432904,-1.433701,0.090103,0.839023,22.99
11895,50,0x6B,-5.063213,4.010371,6.888937,-1.462870,0.061545,-0.912175,23.21
11945,51,0x6A,-4.820341,-3.232704,-6.544370,-1.074359,0.322079,0.682795,22.99
11945,51,0x6B,-4.914857,3.607180,7.024131,-1.050077,-0.315970,-0.659582,23.27
11995,52,0x6A,-5.069195,-2.220540,-6.337390,-0.704938,0.533743,0.248622,22.95
11995,52,0x6B,-5.297709,2.431108,7.020542,-0.662636,-0.626137,-0.133779,23.24
12045,53,0x6A,-4.737789,-1.587638,-7.618747,-0.514196,0.592539,-0.167530,22.98
12045,53,0x6B,-4.899304,1.716850,7.257431,-0.504727,-0.618501,0.125380,23.21
12095,54,0x6A,-4.949553,-1.148555,-7.683353,-0.292757,0.355524,-0.350637,22.98
12095,54,0x6B,-5.052445,0.990629,7.773085,-0.301004,-0.377362,0.320704,23.23
12145,55,0x6A,-4.983053,-1.174876,-8.041081,-0.100182,0.409585,-0.507324,22.99
12145,55,0x6B,-5.094319,0.900898,8.298308,-0.057727,-0.429744,0.500604,23.23
12195,56,0x6A,-4.788038,-1.195215,-8.601001,0.039859,0.258091,-0.503353,22.99
12195,56,0x6B,-4.890929,0.567099,8.930015,0.042150,-0.273209,0.486860,23.24
12245,57,0x6A,-4.499703,-1.618744,-8.258827,0.091324,0.395688,-0.413250,23.00
12245,57,0x6B,-4.588237,0.836291,8.171490,0.109498,-0.410043,0.393550,23.25
12295,58,0x6A,-4.266403,-2.143969,-9.005387,0.074373,0.280234,-0.191048,23.00
12295,58,0x6B,-4.384848,1.424926,9.302097,0.087048,-0.283594,0.141721,23.28
12345,59,0x6A,-4.244868,-1.795813,-8.975477,0.089339,0.390496,-0.116675,23.01
12345,59,0x6B,-4.322634,1.182054,9.311669,0.095142,-0.398284,0.095906,23.30
12395,60,0x6A,-4.546363,-2.197808,-10.174282,0.023518,0.219148,-0.027642,22.98
12395,60,0x6B,-4.589434,1.537389,9.912268,0.023366,-0.217926,0.008094,23.24
12445,61,0x6A,-4.612165,-1.456033,-9.924232,-0.020159,0.043830,0.087506,23.00
12445,61,0x6B,-4.752146,0.833899,10.271192,-0.003818,-0.049175,-0.126144,23.25
12495,62,0x6A,-4.959125,-1.630709,-10.433904,-0.084605,-0.116217,0.160352,22.99
12495,62,0x6B,-5.076373,1.101895,10.165907,-0.101251,0.083230,-0.164323,23.25
12545,63,0x6A,-4.244868,-0.252443,-9.020942,-0.208152,-0.268170,0.135918,23.00
12545,63,0x6B,-4.284349,-0.136391,9.251848,-0.183718,0.266795,-0.139277,23.25
12595,64,0x6A,-3.455236,-0.859023,-10.541580,-0.344681,-0.089339,0.047647,23.00
12595,64,0x6B,-2.868994,0.698704,9.079565,-0.328951,0.173486,-0.044899,23.24
